70BCSV 	
// AQ6370D OPTICAL SPECTRUM ANALYZER //                 
30
"CTRWL",1350.000000
"SPAN", 700.000000
"START WL",1000.000000
"STOP WL",1700.000000
"WLFREQ", 0
"REFL",-30.0
"LSCL",10.0
"RESLN",1.000
"AVG",   1
"SMPLAUTO",      1
"SMPL",       3501
"SMPLINTVL",0.2000
"NORMAL"
"MEAS"
"LSUNT",0
"NMSKH","OFF"
"RESCOR",0
"SMOOTH",0
"FIBERTYPE",0
"MEASWL",1
"SWPSPD",0
"NEBWCAL0",    0
"NEBWCAL1",    0
"NEBWCALWL",   0
"RESPARM",10013
"FREQPARM",10013




"[TRACE DATA]"
1000.0000, -56.438
1000.2000, -56.416
1000.4000, -56.621
1000.6000, -56.813
1000.8000, -56.905
1001.0000, -56.828
1001.2000, -56.684
1001.4000, -56.913
1001.6000, -57.003
1001.8000, -56.995
1002.0000, -56.865
1002.2000, -56.462
1002.4000, -56.103
1002.6000, -55.665
1002.8000, -55.517
1003.0000, -55.786
1003.2000, -55.833
1003.4000, -55.862
1003.6000, -56.074
1003.8000, -55.976
1004.0000, -56.107
1004.2000, -56.460
1004.4000, -56.572
1004.6000, -56.711
1004.8000, -56.533
1005.0000, -56.300
1005.2000, -56.317
1005.4000, -55.953
1005.6000, -55.829
1005.8000, -56.515
1006.0000, -56.233
1006.2000, -56.316
1006.4000, -56.441
1006.6000, -55.849
1006.8000, -56.163
1007.0000, -56.192
1007.2000, -56.032
1007.4000, -56.033
1007.6000, -56.055
1007.8000, -55.492
1008.0000, -55.565
1008.2000, -55.217
1008.4000, -55.060
1008.6000, -55.596
1008.8000, -55.506
1009.0000, -55.734
1009.2000, -55.861
1009.4000, -55.709
1009.6000, -55.967
1009.8000, -56.464
1010.0000, -56.098
1010.2000, -56.581
1010.4000, -56.671
1010.6000, -56.008
1010.8000, -55.832
1011.0000, -55.756
1011.2000, -55.663
1011.4000, -55.959
1011.6000, -56.189
1011.8000, -55.679
1012.0000, -56.151
1012.2000, -56.327
1012.4000, -56.332
1012.6000, -57.179
1012.8000, -57.453
1013.0000, -57.326
1013.2000, -57.978
1013.4000, -58.117
1013.6000, -57.309
1013.8000, -57.536
1014.0000, -57.545
1014.2000, -57.641
1014.4000, -57.937
1014.6000, -57.966
1014.8000, -57.039
1015.0000, -57.463
1015.2000, -57.687
1015.4000, -57.117
1015.6000, -57.580
1015.8000, -58.179
1016.0000, -57.075
1016.2000, -57.373
1016.4000, -57.467
1016.6000, -57.014
1016.8000, -57.000
1017.0000, -57.363
1017.2000, -56.726
1017.4000, -56.348
1017.6000, -56.638
1017.8000, -56.233
1018.0000, -56.167
1018.2000, -56.790
1018.4000, -57.082
1018.6000, -56.395
1018.8000, -56.863
1019.0000, -56.972
1019.2000, -56.218
1019.4000, -56.478
1019.6000, -56.696
1019.8000, -56.271
1020.0000, -55.656
1020.2000, -55.485
1020.4000, -55.457
1020.6000, -55.062
1020.8000, -55.152
1021.0000, -55.268
1021.2000, -54.783
1021.4000, -54.589
1021.6000, -55.010
1021.8000, -55.160
1022.0000, -55.217
1022.2000, -55.750
1022.4000, -56.251
1022.6000, -55.745
1022.8000, -56.193
1023.0000, -56.429
1023.2000, -56.347
1023.4000, -56.053
1023.6000, -55.933
1023.8000, -56.218
1024.0000, -55.471
1024.2000, -54.730
1024.4000, -54.602
1024.6000, -54.761
1024.8000, -54.743
1025.0000, -54.573
1025.2000, -54.496
1025.4000, -54.468
1025.6000, -54.330
1025.8000, -54.484
1026.0000, -54.811
1026.2000, -54.927
1026.4000, -54.950
1026.6000, -54.816
1026.8000, -54.760
1027.0000, -54.601
1027.2000, -55.408
1027.4000, -55.582
1027.6000, -55.441
1027.8000, -55.375
1028.0000, -55.533
1028.2000, -55.736
1028.4000, -55.592
1028.6000, -55.946
1028.8000, -55.759
1029.0000, -55.538
1029.2000, -54.969
1029.4000, -54.830
1029.6000, -54.516
1029.8000, -54.456
1030.0000, -54.657
1030.2000, -54.414
1030.4000, -54.194
1030.6000, -53.963
1030.8000, -53.972
1031.0000, -54.207
1031.2000, -54.185
1031.4000, -54.385
1031.6000, -54.727
1031.8000, -54.707
1032.0000, -54.258
1032.2000, -54.357
1032.4000, -54.584
1032.6000, -54.902
1032.8000, -54.706
1033.0000, -54.423
1033.2000, -54.429
1033.4000, -54.386
1033.6000, -54.459
1033.8000, -54.515
1034.0000, -54.279
1034.2000, -54.104
1034.4000, -53.895
1034.6000, -53.852
1034.8000, -53.720
1035.0000, -53.637
1035.2000, -53.593
1035.4000, -53.681
1035.6000, -53.578
1035.8000, -53.303
1036.0000, -52.890
1036.2000, -52.824
1036.4000, -53.005
1036.6000, -53.057
1036.8000, -52.733
1037.0000, -52.309
1037.2000, -52.176
1037.4000, -52.358
1037.6000, -52.484
1037.8000, -52.215
1038.0000, -51.682
1038.2000, -51.485
1038.4000, -51.699
1038.6000, -51.939
1038.8000, -51.750
1039.0000, -51.315
1039.2000, -50.998
1039.4000, -51.044
1039.6000, -51.470
1039.8000, -51.531
1040.0000, -51.072
1040.2000, -50.537
1040.4000, -50.507
1040.6000, -51.040
1040.8000, -51.170
1041.0000, -50.823
1041.2000, -50.398
1041.4000, -50.690
1041.6000, -51.348
1041.8000, -51.421
1042.0000, -50.782
1042.2000, -50.294
1042.4000, -50.617
1042.6000, -51.376
1042.8000, -51.420
1043.0000, -50.518
1043.2000, -49.894
1043.4000, -50.166
1043.6000, -50.951
1043.8000, -51.161
1044.0000, -50.391
1044.2000, -49.828
1044.4000, -50.000
1044.6000, -50.679
1044.8000, -51.137
1045.0000, -50.666
1045.2000, -50.082
1045.4000, -50.013
1045.6000, -50.536
1045.8000, -50.888
1046.0000, -50.686
1046.2000, -50.137
1046.4000, -49.967
1046.6000, -50.195
1046.8000, -50.732
1047.0000, -50.587
1047.2000, -50.046
1047.4000, -49.825
1047.6000, -50.012
1047.8000, -50.407
1048.0000, -50.718
1048.2000, -50.420
1048.4000, -50.127
1048.6000, -50.254
1048.8000, -50.475
1049.0000, -50.613
1049.2000, -50.460
1049.4000, -50.329
1049.6000, -50.174
1049.8000, -50.253
1050.0000, -50.330
1050.2000, -50.323
1050.4000, -50.222
1050.6000, -50.329
1050.8000, -50.566
1051.0000, -50.639
1051.2000, -50.451
1051.4000, -50.128
1051.6000, -49.940
1051.8000, -50.008
1052.0000, -50.147
1052.2000, -50.018
1052.4000, -49.531
1052.6000, -48.929
1052.8000, -48.630
1053.0000, -48.586
1053.2000, -48.656
1053.4000, -48.544
1053.6000, -48.248
1053.8000, -47.965
1054.0000, -47.776
1054.2000, -47.768
1054.4000, -47.848
1054.6000, -47.903
1054.8000, -47.784
1055.0000, -47.541
1055.2000, -47.377
1055.4000, -47.321
1055.6000, -47.409
1055.8000, -47.445
1056.0000, -47.374
1056.2000, -47.151
1056.4000, -46.954
1056.6000, -46.862
1056.8000, -46.916
1057.0000, -47.004
1057.2000, -47.036
1057.4000, -46.926
1057.6000, -46.699
1057.8000, -46.353
1058.0000, -46.037
1058.2000, -45.862
1058.4000, -45.793
1058.6000, -45.727
1058.8000, -45.617
1059.0000, -45.355
1059.2000, -45.063
1059.4000, -44.811
1059.6000, -44.651
1059.8000, -44.653
1060.0000, -44.747
1060.2000, -44.870
1060.4000, -44.932
1060.6000, -44.844
1060.8000, -44.596
1061.0000, -44.273
1061.2000, -43.869
1061.4000, -43.528
1061.6000, -43.285
1061.8000, -43.143
1062.0000, -43.050
1062.2000, -42.933
1062.4000, -42.619
1062.6000, -42.034
1062.8000, -40.191
1063.0000, -38.276
1063.2000, -38.077
1063.4000, -37.974
1063.6000, -37.911
1063.8000, -37.848
1064.0000, -37.793
1064.2000, -37.852
1064.4000, -39.154
1064.6000, -38.876
1064.8000, -38.561
1065.0000, -38.575
1065.2000, -38.902
1065.4000, -39.444
1065.6000, -40.138
1065.8000, -41.239
1066.0000, -42.553
1066.2000, -43.774
1066.4000, -44.416
1066.6000, -44.523
1066.8000, -44.363
1067.0000, -44.270
1067.2000, -44.272
1067.4000, -44.470
1067.6000, -44.812
1067.8000, -45.216
1068.0000, -45.485
1068.2000, -45.421
1068.4000, -45.193
1068.6000, -44.928
1068.8000, -44.824
1069.0000, -44.848
1069.2000, -45.025
1069.4000, -45.383
1069.6000, -45.919
1069.8000, -46.603
1070.0000, -47.107
1070.2000, -47.302
1070.4000, -47.049
1070.6000, -46.493
1070.8000, -45.855
1071.0000, -45.254
1071.2000, -44.840
1071.4000, -44.628
1071.6000, -44.704
1071.8000, -45.047
1072.0000, -45.685
1072.2000, -46.500
1072.4000, -47.438
1072.6000, -48.177
1072.8000, -48.277
1073.0000, -47.814
1073.2000, -47.047
1073.4000, -46.247
1073.6000, -45.709
1073.8000, -45.413
1074.0000, -45.335
1074.2000, -45.560
1074.4000, -46.084
1074.6000, -46.916
1074.8000, -47.995
1075.0000, -49.204
1075.2000, -50.423
1075.4000, -51.527
1075.6000, -52.272
1075.8000, -52.487
1076.0000, -51.940
1076.2000, -50.896
1076.4000, -49.538
1076.6000, -48.249
1076.8000, -47.259
1077.0000, -46.594
1077.2000, -46.209
1077.4000, -46.085
1077.6000, -46.156
1077.8000, -46.429
1078.0000, -46.967
1078.2000, -47.783
1078.4000, -48.806
1078.6000, -49.991
1078.8000, -51.140
1079.0000, -52.288
1079.2000, -53.120
1079.4000, -53.514
1079.6000, -53.596
1079.8000, -53.028
1080.0000, -52.281
1080.2000, -51.357
1080.4000, -50.265
1080.6000, -49.351
1080.8000, -48.617
1081.0000, -48.141
1081.2000, -47.737
1081.4000, -47.397
1081.6000, -47.143
1081.8000, -47.016
1082.0000, -47.093
1082.2000, -47.333
1082.4000, -47.655
1082.6000, -48.041
1082.8000, -48.467
1083.0000, -48.945
1083.2000, -49.361
1083.4000, -49.726
1083.6000, -50.136
1083.8000, -50.502
1084.0000, -50.869
1084.2000, -51.245
1084.4000, -51.699
1084.6000, -52.421
1084.8000, -53.198
1085.0000, -53.874
1085.2000, -54.011
1085.4000, -53.839
1085.6000, -53.156
1085.8000, -52.508
1086.0000, -51.907
1086.2000, -51.381
1086.4000, -51.181
1086.6000, -50.965
1086.8000, -50.853
1087.0000, -50.884
1087.2000, -50.946
1087.4000, -51.115
1087.6000, -51.338
1087.8000, -51.441
1088.0000, -51.450
1088.2000, -51.334
1088.4000, -50.981
1088.6000, -50.576
1088.8000, -50.196
1089.0000, -49.841
1089.2000, -49.483
1089.4000, -49.175
1089.6000, -48.889
1089.8000, -48.748
1090.0000, -48.659
1090.2000, -48.714
1090.4000, -48.767
1090.6000, -48.799
1090.8000, -48.740
1091.0000, -48.612
1091.2000, -48.370
1091.4000, -48.126
1091.6000, -47.821
1091.8000, -47.436
1092.0000, -47.054
1092.2000, -46.697
1092.4000, -46.389
1092.6000, -46.207
1092.8000, -46.130
1093.0000, -46.223
1093.2000, -46.447
1093.4000, -46.791
1093.6000, -47.251
1093.8000, -47.878
1094.0000, -48.625
1094.2000, -49.335
1094.4000, -49.954
1094.6000, -50.539
1094.8000, -51.107
1095.0000, -51.568
1095.2000, -52.005
1095.4000, -52.665
1095.6000, -53.303
1095.8000, -54.057
1096.0000, -54.603
1096.2000, -54.746
1096.4000, -54.251
1096.6000, -52.904
1096.8000, -51.498
1097.0000, -50.122
1097.2000, -48.928
1097.4000, -48.040
1097.6000, -47.337
1097.8000, -46.735
1098.0000, -46.328
1098.2000, -46.100
1098.4000, -46.031
1098.6000, -45.998
1098.8000, -46.043
1099.0000, -46.132
1099.2000, -46.345
1099.4000, -46.645
1099.6000, -47.040
1099.8000, -47.523
1100.0000, -48.139
1100.2000, -48.842
1100.4000, -49.573
1100.6000, -50.480
1100.8000, -51.405
1101.0000, -52.410
1101.2000, -53.126
1101.4000, -53.093
1101.6000, -52.443
1101.8000, -51.359
1102.0000, -50.117
1102.2000, -48.937
1102.4000, -47.926
1102.6000, -47.083
1102.8000, -46.504
1103.0000, -46.139
1103.2000, -46.056
1103.4000, -46.273
1103.6000, -46.675
1103.8000, -47.260
1104.0000, -47.978
1104.2000, -48.785
1104.4000, -49.546
1104.6000, -50.114
1104.8000, -50.212
1105.0000, -49.931
1105.2000, -49.420
1105.4000, -48.826
1105.6000, -48.380
1105.8000, -48.031
1106.0000, -47.845
1106.2000, -47.837
1106.4000, -48.004
1106.6000, -48.328
1106.8000, -48.839
1107.0000, -49.453
1107.2000, -50.139
1107.4000, -50.703
1107.6000, -50.963
1107.8000, -50.739
1108.0000, -50.227
1108.2000, -49.655
1108.4000, -49.128
1108.6000, -48.712
1108.8000, -48.397
1109.0000, -48.267
1109.2000, -48.339
1109.4000, -48.623
1109.6000, -48.984
1109.8000, -49.281
1110.0000, -49.331
1110.2000, -49.232
1110.4000, -49.068
1110.6000, -48.827
1110.8000, -48.656
1111.0000, -48.536
1111.2000, -48.487
1111.4000, -48.594
1111.6000, -48.813
1111.8000, -49.090
1112.0000, -49.315
1112.2000, -49.474
1112.4000, -49.634
1112.6000, -49.744
1112.8000, -49.720
1113.0000, -49.668
1113.2000, -49.680
1113.4000, -49.850
1113.6000, -49.928
1113.8000, -49.834
1114.0000, -49.743
1114.2000, -49.751
1114.4000, -49.848
1114.6000, -49.999
1114.8000, -50.010
1115.0000, -50.056
1115.2000, -50.064
1115.4000, -50.166
1115.6000, -50.262
1115.8000, -50.319
1116.0000, -50.344
1116.2000, -50.450
1116.4000, -50.630
1116.6000, -50.806
1116.8000, -50.889
1117.0000, -50.919
1117.2000, -50.896
1117.4000, -50.720
1117.6000, -50.691
1117.8000, -50.692
1118.0000, -50.776
1118.2000, -50.764
1118.4000, -50.754
1118.6000, -50.734
1118.8000, -50.695
1119.0000, -50.641
1119.2000, -50.600
1119.4000, -50.411
1119.6000, -50.195
1119.8000, -49.968
1120.0000, -49.830
1120.2000, -49.887
1120.4000, -50.062
1120.6000, -50.151
1120.8000, -50.155
1121.0000, -50.184
1121.2000, -50.175
1121.4000, -50.345
1121.6000, -50.524
1121.8000, -50.664
1122.0000, -50.641
1122.2000, -50.566
1122.4000, -50.510
1122.6000, -50.477
1122.8000, -50.659
1123.0000, -50.907
1123.2000, -51.000
1123.4000, -50.951
1123.6000, -50.707
1123.8000, -50.452
1124.0000, -50.418
1124.2000, -50.433
1124.4000, -50.443
1124.6000, -50.472
1124.8000, -50.644
1125.0000, -50.960
1125.2000, -51.340
1125.4000, -51.586
1125.6000, -51.777
1125.8000, -51.677
1126.0000, -51.509
1126.2000, -51.494
1126.4000, -51.651
1126.6000, -51.932
1126.8000, -52.276
1127.0000, -52.419
1127.2000, -52.519
1127.4000, -52.422
1127.6000, -52.426
1127.8000, -52.389
1128.0000, -52.520
1128.2000, -52.434
1128.4000, -52.094
1128.6000, -51.571
1128.8000, -51.286
1129.0000, -51.245
1129.2000, -51.310
1129.4000, -51.381
1129.6000, -51.312
1129.8000, -51.211
1130.0000, -51.217
1130.2000, -51.143
1130.4000, -50.830
1130.6000, -50.438
1130.8000, -50.088
1131.0000, -49.894
1131.2000, -49.997
1131.4000, -50.220
1131.6000, -50.588
1131.8000, -50.738
1132.0000, -50.893
1132.2000, -51.046
1132.4000, -51.129
1132.6000, -51.083
1132.8000, -50.961
1133.0000, -50.816
1133.2000, -50.872
1133.4000, -51.214
1133.6000, -51.639
1133.8000, -51.787
1134.0000, -51.808
1134.2000, -51.967
1134.4000, -52.119
1134.6000, -52.263
1134.8000, -51.952
1135.0000, -51.389
1135.2000, -50.925
1135.4000, -50.686
1135.6000, -50.641
1135.8000, -50.568
1136.0000, -50.658
1136.2000, -50.999
1136.4000, -51.581
1136.6000, -52.002
1136.8000, -51.952
1137.0000, -51.657
1137.2000, -51.423
1137.4000, -51.273
1137.6000, -50.989
1137.8000, -50.554
1138.0000, -50.277
1138.2000, -50.169
1138.4000, -50.173
1138.6000, -50.174
1138.8000, -50.179
1139.0000, -50.401
1139.2000, -50.576
1139.4000, -50.565
1139.6000, -50.373
1139.8000, -50.352
1140.0000, -50.469
1140.2000, -50.640
1140.4000, -50.616
1140.6000, -50.672
1140.8000, -50.950
1141.0000, -51.305
1141.2000, -51.523
1141.4000, -51.428
1141.6000, -51.383
1141.8000, -51.327
1142.0000, -51.049
1142.2000, -50.756
1142.4000, -50.700
1142.6000, -50.836
1142.8000, -50.919
1143.0000, -50.958
1143.2000, -51.169
1143.4000, -51.473
1143.6000, -51.757
1143.8000, -51.713
1144.0000, -51.591
1144.2000, -51.567
1144.4000, -51.472
1144.6000, -51.104
1144.8000, -50.964
1145.0000, -51.111
1145.2000, -51.484
1145.4000, -51.642
1145.6000, -51.863
1145.8000, -52.218
1146.0000, -52.771
1146.2000, -52.884
1146.4000, -52.875
1146.6000, -52.907
1146.8000, -52.746
1147.0000, -52.289
1147.2000, -52.000
1147.4000, -51.989
1147.6000, -51.963
1147.8000, -51.766
1148.0000, -51.668
1148.2000, -51.847
1148.4000, -52.176
1148.6000, -52.331
1148.8000, -52.127
1149.0000, -51.992
1149.2000, -52.057
1149.4000, -52.042
1149.6000, -51.923
1149.8000, -51.849
1150.0000, -51.729
1150.2000, -51.830
1150.4000, -51.972
1150.6000, -52.212
1150.8000, -52.487
1151.0000, -52.762
1151.2000, -53.102
1151.4000, -53.391
1151.6000, -53.325
1151.8000, -53.154
1152.0000, -53.009
1152.2000, -52.679
1152.4000, -52.254
1152.6000, -51.920
1152.8000, -51.813
1153.0000, -51.991
1153.2000, -52.367
1153.4000, -52.657
1153.6000, -53.096
1153.8000, -53.481
1154.0000, -53.789
1154.2000, -53.614
1154.4000, -53.281
1154.6000, -52.987
1154.8000, -52.737
1155.0000, -52.564
1155.2000, -52.484
1155.4000, -52.501
1155.6000, -52.678
1155.8000, -53.057
1156.0000, -53.341
1156.2000, -53.632
1156.4000, -53.968
1156.6000, -54.285
1156.8000, -54.454
1157.0000, -54.701
1157.2000, -54.757
1157.4000, -54.552
1157.6000, -54.297
1157.8000, -53.833
1158.0000, -53.671
1158.2000, -53.583
1158.4000, -53.701
1158.6000, -53.869
1158.8000, -54.137
1159.0000, -54.427
1159.2000, -54.653
1159.4000, -54.747
1159.6000, -54.636
1159.8000, -54.463
1160.0000, -54.318
1160.2000, -54.038
1160.4000, -53.924
1160.6000, -53.964
1160.8000, -54.094
1161.0000, -54.198
1161.2000, -54.194
1161.4000, -54.107
1161.6000, -54.119
1161.8000, -54.259
1162.0000, -54.503
1162.2000, -54.727
1162.4000, -54.676
1162.6000, -54.530
1162.8000, -54.353
1163.0000, -54.188
1163.2000, -54.097
1163.4000, -54.077
1163.6000, -54.143
1163.8000, -54.240
1164.0000, -54.309
1164.2000, -54.299
1164.4000, -54.199
1164.6000, -53.861
1164.8000, -53.693
1165.0000, -53.792
1165.2000, -53.953
1165.4000, -54.102
1165.6000, -54.207
1165.8000, -54.363
1166.0000, -54.575
1166.2000, -54.614
1166.4000, -54.719
1166.6000, -54.743
1166.8000, -54.727
1167.0000, -54.505
1167.2000, -54.071
1167.4000, -53.855
1167.6000, -53.448
1167.8000, -53.100
1168.0000, -52.853
1168.2000, -52.692
1168.4000, -52.664
1168.6000, -52.734
1168.8000, -52.816
1169.0000, -52.747
1169.2000, -52.738
1169.4000, -52.905
1169.6000, -53.140
1169.8000, -53.366
1170.0000, -53.287
1170.2000, -53.162
1170.4000, -53.077
1170.6000, -53.019
1170.8000, -52.982
1171.0000, -52.884
1171.2000, -52.681
1171.4000, -52.748
1171.6000, -52.902
1171.8000, -53.242
1172.0000, -53.296
1172.2000, -53.285
1172.4000, -53.267
1172.6000, -53.463
1172.8000, -53.427
1173.0000, -53.281
1173.2000, -52.897
1173.4000, -52.559
1173.6000, -52.467
1173.8000, -52.421
1174.0000, -52.581
1174.2000, -52.535
1174.4000, -52.596
1174.6000, -52.655
1174.8000, -52.833
1175.0000, -53.078
1175.2000, -53.392
1175.4000, -53.422
1175.6000, -53.423
1175.8000, -53.650
1176.0000, -53.745
1176.2000, -53.597
1176.4000, -53.290
1176.6000, -52.976
1176.8000, -52.737
1177.0000, -52.454
1177.2000, -52.142
1177.4000, -51.765
1177.6000, -51.609
1177.8000, -51.644
1178.0000, -51.670
1178.2000, -51.648
1178.4000, -51.648
1178.6000, -51.860
1178.8000, -52.208
1179.0000, -52.601
1179.2000, -52.771
1179.4000, -52.699
1179.6000, -52.622
1179.8000, -52.686
1180.0000, -52.814
1180.2000, -52.580
1180.4000, -52.097
1180.6000, -51.755
1180.8000, -51.584
1181.0000, -51.616
1181.2000, -51.537
1181.4000, -51.331
1181.6000, -51.175
1181.8000, -51.116
1182.0000, -51.345
1182.2000, -51.581
1182.4000, -51.665
1182.6000, -51.620
1182.8000, -51.623
1183.0000, -51.640
1183.2000, -51.614
1183.4000, -51.583
1183.6000, -51.589
1183.8000, -51.512
1184.0000, -51.335
1184.2000, -51.135
1184.4000, -51.226
1184.6000, -51.359
1184.8000, -51.461
1185.0000, -51.390
1185.2000, -51.242
1185.4000, -51.260
1185.6000, -51.541
1185.8000, -51.702
1186.0000, -51.629
1186.2000, -51.353
1186.4000, -51.381
1186.6000, -51.679
1186.8000, -52.024
1187.0000, -51.987
1187.2000, -51.697
1187.4000, -51.609
1187.6000, -51.822
1187.8000, -52.066
1188.0000, -51.966
1188.2000, -51.744
1188.4000, -51.673
1188.6000, -51.827
1188.8000, -52.072
1189.0000, -52.113
1189.2000, -52.061
1189.4000, -52.081
1189.6000, -52.351
1189.8000, -52.567
1190.0000, -52.571
1190.2000, -52.478
1190.4000, -52.376
1190.6000, -52.361
1190.8000, -52.437
1191.0000, -52.257
1191.2000, -52.078
1191.4000, -51.842
1191.6000, -51.750
1191.8000, -51.671
1192.0000, -51.615
1192.2000, -51.519
1192.4000, -51.472
1192.6000, -51.481
1192.8000, -51.579
1193.0000, -51.701
1193.2000, -51.836
1193.4000, -51.876
1193.6000, -52.017
1193.8000, -52.371
1194.0000, -52.709
1194.2000, -52.847
1194.4000, -52.812
1194.6000, -52.904
1194.8000, -53.230
1195.0000, -53.245
1195.2000, -53.111
1195.4000, -52.903
1195.6000, -52.800
1195.8000, -52.749
1196.0000, -52.495
1196.2000, -52.091
1196.4000, -51.830
1196.6000, -51.911
1196.8000, -52.139
1197.0000, -52.285
1197.2000, -52.274
1197.4000, -52.617
1197.6000, -53.167
1197.8000, -53.679
1198.0000, -53.843
1198.2000, -53.845
1198.4000, -53.909
1198.6000, -54.096
1198.8000, -53.829
1199.0000, -53.399
1199.2000, -53.183
1199.4000, -53.133
1199.6000, -52.966
1199.8000, -52.734
1200.0000, -52.651
1200.2000, -52.848
1200.4000, -53.162
1200.6000, -53.233
1200.8000, -53.249
1201.0000, -53.452
1201.2000, -53.704
1201.4000, -53.818
1201.6000, -53.793
1201.8000, -53.869
1202.0000, -54.009
1202.2000, -54.387
1202.4000, -54.596
1202.6000, -54.757
1202.8000, -54.783
1203.0000, -55.011
1203.2000, -55.060
1203.4000, -55.001
1203.6000, -54.816
1203.8000, -54.750
1204.0000, -54.340
1204.2000, -53.872
1204.4000, -53.572
1204.6000, -53.323
1204.8000, -53.197
1205.0000, -53.145
1205.2000, -53.117
1205.4000, -53.479
1205.6000, -53.913
1205.8000, -54.183
1206.0000, -54.603
1206.2000, -54.766
1206.4000, -55.103
1206.6000, -55.282
1206.8000, -55.221
1207.0000, -55.187
1207.2000, -54.929
1207.4000, -54.750
1207.6000, -54.621
1207.8000, -54.476
1208.0000, -54.417
1208.2000, -54.524
1208.4000, -54.466
1208.6000, -54.533
1208.8000, -54.633
1209.0000, -54.635
1209.2000, -54.722
1209.4000, -54.470
1209.6000, -54.163
1209.8000, -53.997
1210.0000, -53.844
1210.2000, -53.781
1210.4000, -53.681
1210.6000, -53.723
1210.8000, -53.793
1211.0000, -53.792
1211.2000, -53.932
1211.4000, -54.107
1211.6000, -54.275
1211.8000, -54.329
1212.0000, -54.316
1212.2000, -54.243
1212.4000, -54.052
1212.6000, -53.771
1212.8000, -53.575
1213.0000, -53.452
1213.2000, -53.096
1213.4000, -53.084
1213.6000, -53.061
1213.8000, -53.117
1214.0000, -53.192
1214.2000, -53.357
1214.4000, -53.528
1214.6000, -53.758
1214.8000, -53.823
1215.0000, -53.981
1215.2000, -53.997
1215.4000, -53.830
1215.6000, -53.815
1215.8000, -53.717
1216.0000, -53.565
1216.2000, -53.401
1216.4000, -53.320
1216.6000, -53.473
1216.8000, -53.515
1217.0000, -53.601
1217.2000, -53.622
1217.4000, -53.777
1217.6000, -53.815
1217.8000, -53.626
1218.0000, -53.492
1218.2000, -53.349
1218.4000, -53.113
1218.6000, -52.929
1218.8000, -52.894
1219.0000, -52.830
1219.2000, -52.767
1219.4000, -52.752
1219.6000, -52.865
1219.8000, -52.989
1220.0000, -53.097
1220.2000, -53.226
1220.4000, -53.272
1220.6000, -53.238
1220.8000, -53.264
1221.0000, -53.160
1221.2000, -53.082
1221.4000, -52.953
1221.6000, -52.837
1221.8000, -52.834
1222.0000, -52.765
1222.2000, -52.740
1222.4000, -52.729
1222.6000, -52.808
1222.8000, -52.859
1223.0000, -52.893
1223.2000, -53.024
1223.4000, -53.130
1223.6000, -53.167
1223.8000, -53.164
1224.0000, -53.145
1224.2000, -53.196
1224.4000, -53.279
1224.6000, -53.447
1224.8000, -53.545
1225.0000, -53.647
1225.2000, -53.717
1225.4000, -53.877
1225.6000, -53.959
1225.8000, -53.992
1226.0000, -54.057
1226.2000, -53.997
1226.4000, -53.948
1226.6000, -53.827
1226.8000, -53.621
1227.0000, -53.454
1227.2000, -53.283
1227.4000, -53.056
1227.6000, -53.014
1227.8000, -52.804
1228.0000, -52.597
1228.2000, -52.452
1228.4000, -52.316
1228.6000, -52.304
1228.8000, -52.231
1229.0000, -52.242
1229.2000, -52.337
1229.4000, -52.387
1229.6000, -52.508
1229.8000, -52.643
1230.0000, -52.789
1230.2000, -52.962
1230.4000, -53.140
1230.6000, -53.361
1230.8000, -53.537
1231.0000, -53.705
1231.2000, -53.884
1231.4000, -54.090
1231.6000, -54.004
1231.8000, -53.963
1232.0000, -54.056
1232.2000, -53.882
1232.4000, -53.651
1232.6000, -53.397
1232.8000, -53.165
1233.0000, -52.877
1233.2000, -52.727
1233.4000, -52.589
1233.6000, -52.337
1233.8000, -52.093
1234.0000, -51.945
1234.2000, -51.852
1234.4000, -51.778
1234.6000, -51.668
1234.8000, -51.532
1235.0000, -51.455
1235.2000, -51.489
1235.4000, -51.573
1235.6000, -51.639
1235.8000, -51.763
1236.0000, -51.938
1236.2000, -52.136
1236.4000, -52.358
1236.6000, -52.695
1236.8000, -52.944
1237.0000, -53.095
1237.2000, -53.297
1237.4000, -53.543
1237.6000, -53.776
1237.8000, -53.967
1238.0000, -54.079
1238.2000, -54.183
1238.4000, -54.060
1238.6000, -54.106
1238.8000, -53.946
1239.0000, -53.708
1239.2000, -53.419
1239.4000, -52.994
1239.6000, -52.821
1239.8000, -52.503
1240.0000, -52.293
1240.2000, -52.011
1240.4000, -51.733
1240.6000, -51.571
1240.8000, -51.430
1241.0000, -51.273
1241.2000, -51.180
1241.4000, -51.027
1241.6000, -50.939
1241.8000, -50.962
1242.0000, -50.957
1242.2000, -51.028
1242.4000, -51.052
1242.6000, -51.148
1242.8000, -51.346
1243.0000, -51.600
1243.2000, -51.845
1243.4000, -52.105
1243.6000, -52.387
1243.8000, -52.546
1244.0000, -52.759
1244.2000, -52.977
1244.4000, -53.002
1244.6000, -52.939
1244.8000, -53.002
1245.0000, -53.007
1245.2000, -53.057
1245.4000, -53.073
1245.6000, -53.134
1245.8000, -53.135
1246.0000, -53.133
1246.2000, -53.239
1246.4000, -53.125
1246.6000, -53.115
1246.8000, -53.010
1247.0000, -52.852
1247.2000, -52.679
1247.4000, -52.512
1247.6000, -52.378
1247.8000, -52.252
1248.0000, -52.087
1248.2000, -51.989
1248.4000, -51.798
1248.6000, -51.621
1248.8000, -51.453
1249.0000, -51.332
1249.2000, -51.178
1249.4000, -51.084
1249.6000, -50.961
1249.8000, -50.810
1250.0000, -50.721
1250.2000, -50.677
1250.4000, -50.657
1250.6000, -50.602
1250.8000, -50.593
1251.0000, -50.613
1251.2000, -50.622
1251.4000, -50.634
1251.6000, -50.684
1251.8000, -50.750
1252.0000, -50.814
1252.2000, -50.855
1252.4000, -51.004
1252.6000, -51.150
1252.8000, -51.255
1253.0000, -51.319
1253.2000, -51.416
1253.4000, -51.530
1253.6000, -51.621
1253.8000, -51.717
1254.0000, -51.817
1254.2000, -51.929
1254.4000, -52.016
1254.6000, -52.247
1254.8000, -52.458
1255.0000, -52.617
1255.2000, -52.757
1255.4000, -52.838
1255.6000, -52.867
1255.8000, -52.942
1256.0000, -53.016
1256.2000, -53.024
1256.4000, -53.120
1256.6000, -53.195
1256.8000, -53.370
1257.0000, -53.438
1257.2000, -53.527
1257.4000, -53.553
1257.6000, -53.565
1257.8000, -53.545
1258.0000, -53.482
1258.2000, -53.463
1258.4000, -53.375
1258.6000, -53.253
1258.8000, -53.161
1259.0000, -53.144
1259.2000, -53.104
1259.4000, -53.046
1259.6000, -53.069
1259.8000, -53.072
1260.0000, -53.034
1260.2000, -52.992
1260.4000, -53.002
1260.6000, -53.068
1260.8000, -53.047
1261.0000, -53.115
1261.2000, -53.157
1261.4000, -53.250
1261.6000, -53.274
1261.8000, -53.326
1262.0000, -53.412
1262.2000, -53.499
1262.4000, -53.598
1262.6000, -53.648
1262.8000, -53.652
1263.0000, -53.736
1263.2000, -53.770
1263.4000, -53.827
1263.6000, -53.774
1263.8000, -53.765
1264.0000, -53.784
1264.2000, -53.750
1264.4000, -53.826
1264.6000, -53.865
1264.8000, -53.837
1265.0000, -53.900
1265.2000, -53.895
1265.4000, -53.887
1265.6000, -53.872
1265.8000, -53.895
1266.0000, -53.818
1266.2000, -53.880
1266.4000, -53.765
1266.6000, -53.808
1266.8000, -53.769
1267.0000, -53.693
1267.2000, -53.617
1267.4000, -53.496
1267.6000, -53.402
1267.8000, -53.284
1268.0000, -53.311
1268.2000, -53.219
1268.4000, -53.238
1268.6000, -53.145
1268.8000, -53.147
1269.0000, -53.169
1269.2000, -53.228
1269.4000, -53.289
1269.6000, -53.445
1269.8000, -53.401
1270.0000, -53.419
1270.2000, -53.429
1270.4000, -53.447
1270.6000, -53.409
1270.8000, -53.353
1271.0000, -53.414
1271.2000, -53.449
1271.4000, -53.518
1271.6000, -53.661
1271.8000, -53.751
1272.0000, -53.742
1272.2000, -53.644
1272.4000, -53.554
1272.6000, -53.460
1272.8000, -53.305
1273.0000, -53.195
1273.2000, -52.971
1273.4000, -52.753
1273.6000, -52.702
1273.8000, -52.637
1274.0000, -52.611
1274.2000, -52.661
1274.4000, -52.760
1274.6000, -52.798
1274.8000, -52.961
1275.0000, -52.986
1275.2000, -52.981
1275.4000, -53.027
1275.6000, -52.942
1275.8000, -52.971
1276.0000, -52.982
1276.2000, -52.906
1276.4000, -52.896
1276.6000, -52.862
1276.8000, -52.875
1277.0000, -52.885
1277.2000, -52.980
1277.4000, -52.876
1277.6000, -52.874
1277.8000, -52.942
1278.0000, -52.961
1278.2000, -52.930
1278.4000, -52.927
1278.6000, -52.893
1278.8000, -53.019
1279.0000, -53.055
1279.2000, -53.197
1279.4000, -53.320
1279.6000, -53.466
1279.8000, -53.573
1280.0000, -53.632
1280.2000, -53.669
1280.4000, -53.669
1280.6000, -53.523
1280.8000, -53.382
1281.0000, -53.233
1281.2000, -53.003
1281.4000, -52.936
1281.6000, -52.909
1281.8000, -52.834
1282.0000, -52.761
1282.2000, -52.824
1282.4000, -52.793
1282.6000, -52.766
1282.8000, -52.712
1283.0000, -52.667
1283.2000, -52.655
1283.4000, -52.614
1283.6000, -52.519
1283.8000, -52.488
1284.0000, -52.471
1284.2000, -52.604
1284.4000, -52.629
1284.6000, -52.743
1284.8000, -52.881
1285.0000, -53.042
1285.2000, -53.076
1285.4000, -53.099
1285.6000, -53.207
1285.8000, -53.165
1286.0000, -53.125
1286.2000, -53.063
1286.4000, -53.081
1286.6000, -53.027
1286.8000, -52.925
1287.0000, -52.857
1287.2000, -52.783
1287.4000, -52.677
1287.6000, -52.573
1287.8000, -52.465
1288.0000, -52.454
1288.2000, -52.467
1288.4000, -52.507
1288.6000, -52.610
1288.8000, -52.715
1289.0000, -52.831
1289.2000, -52.912
1289.4000, -53.016
1289.6000, -53.087
1289.8000, -53.087
1290.0000, -53.159
1290.2000, -53.098
1290.4000, -53.038
1290.6000, -52.945
1290.8000, -52.942
1291.0000, -52.801
1291.2000, -52.794
1291.4000, -52.768
1291.6000, -52.692
1291.8000, -52.683
1292.0000, -52.614
1292.2000, -52.670
1292.4000, -52.638
1292.6000, -52.643
1292.8000, -52.688
1293.0000, -52.853
1293.2000, -52.968
1293.4000, -53.162
1293.6000, -53.441
1293.8000, -53.488
1294.0000, -53.614
1294.2000, -53.658
1294.4000, -53.731
1294.6000, -53.714
1294.8000, -53.833
1295.0000, -53.769
1295.2000, -53.681
1295.4000, -53.601
1295.6000, -53.519
1295.8000, -53.526
1296.0000, -53.368
1296.2000, -53.350
1296.4000, -53.180
1296.6000, -53.206
1296.8000, -53.205
1297.0000, -53.200
1297.2000, -53.204
1297.4000, -53.257
1297.6000, -53.253
1297.8000, -53.246
1298.0000, -53.280
1298.2000, -53.274
1298.4000, -53.217
1298.6000, -53.192
1298.8000, -53.152
1299.0000, -53.177
1299.2000, -53.150
1299.4000, -53.189
1299.6000, -53.172
1299.8000, -53.201
1300.0000, -53.139
1300.2000, -53.070
1300.4000, -53.019
1300.6000, -52.969
1300.8000, -52.918
1301.0000, -52.837
1301.2000, -52.685
1301.4000, -52.618
1301.6000, -52.550
1301.8000, -52.534
1302.0000, -52.478
1302.2000, -52.339
1302.4000, -52.309
1302.6000, -52.192
1302.8000, -52.131
1303.0000, -52.052
1303.2000, -52.067
1303.4000, -52.020
1303.6000, -52.011
1303.8000, -52.070
1304.0000, -52.110
1304.2000, -52.176
1304.4000, -52.236
1304.6000, -52.256
1304.8000, -52.326
1305.0000, -52.384
1305.2000, -52.442
1305.4000, -52.481
1305.6000, -52.511
1305.8000, -52.626
1306.0000, -52.724
1306.2000, -52.853
1306.4000, -52.946
1306.6000, -53.027
1306.8000, -53.226
1307.0000, -53.429
1307.2000, -53.669
1307.4000, -53.873
1307.6000, -54.041
1307.8000, -54.358
1308.0000, -54.622
1308.2000, -54.821
1308.4000, -54.957
1308.6000, -54.992
1308.8000, -55.254
1309.0000, -55.382
1309.2000, -55.413
1309.4000, -55.372
1309.6000, -55.369
1309.8000, -55.266
1310.0000, -55.343
1310.2000, -55.209
1310.4000, -55.101
1310.6000, -54.900
1310.8000, -54.847
1311.0000, -54.622
1311.2000, -54.449
1311.4000, -54.307
1311.6000, -54.168
1311.8000, -54.118
1312.0000, -54.023
1312.2000, -54.051
1312.4000, -53.898
1312.6000, -53.886
1312.8000, -53.944
1313.0000, -53.905
1313.2000, -53.838
1313.4000, -53.751
1313.6000, -53.773
1313.8000, -53.817
1314.0000, -53.805
1314.2000, -53.825
1314.4000, -53.815
1314.6000, -53.842
1314.8000, -53.968
1315.0000, -54.025
1315.2000, -54.008
1315.4000, -53.971
1315.6000, -54.026
1315.8000, -54.082
1316.0000, -54.194
1316.2000, -54.279
1316.4000, -54.323
1316.6000, -54.394
1316.8000, -54.721
1317.0000, -54.972
1317.2000, -55.103
1317.4000, -55.175
1317.6000, -55.278
1317.8000, -55.398
1318.0000, -55.600
1318.2000, -55.635
1318.4000, -55.724
1318.6000, -55.620
1318.8000, -55.479
1319.0000, -55.502
1319.2000, -55.503
1319.4000, -55.294
1319.6000, -55.246
1319.8000, -55.116
1320.0000, -55.168
1320.2000, -55.159
1320.4000, -55.069
1320.6000, -54.838
1320.8000, -54.590
1321.0000, -54.408
1321.2000, -54.298
1321.4000, -54.057
1321.6000, -53.735
1321.8000, -53.644
1322.0000, -53.639
1322.2000, -53.844
1322.4000, -53.784
1322.6000, -53.720
1322.8000, -53.806
1323.0000, -53.989
1323.2000, -54.123
1323.4000, -54.215
1323.6000, -54.253
1323.8000, -54.364
1324.0000, -54.544
1324.2000, -54.879
1324.4000, -55.080
1324.6000, -55.081
1324.8000, -55.135
1325.0000, -55.519
1325.2000, -55.651
1325.4000, -55.805
1325.6000, -55.684
1325.8000, -55.717
1326.0000, -55.683
1326.2000, -55.694
1326.4000, -55.666
1326.6000, -55.355
1326.8000, -55.051
1327.0000, -54.952
1327.2000, -55.107
1327.4000, -54.980
1327.6000, -54.716
1327.8000, -54.388
1328.0000, -54.268
1328.2000, -54.327
1328.4000, -54.243
1328.6000, -53.922
1328.8000, -53.615
1329.0000, -53.557
1329.2000, -53.682
1329.4000, -53.739
1329.6000, -53.647
1329.8000, -53.705
1330.0000, -53.872
1330.2000, -54.188
1330.4000, -54.420
1330.6000, -54.584
1330.8000, -54.549
1331.0000, -54.726
1331.2000, -55.004
1331.4000, -55.103
1331.6000, -55.049
1331.8000, -54.904
1332.0000, -54.740
1332.2000, -54.857
1332.4000, -54.911
1332.6000, -54.711
1332.8000, -54.490
1333.0000, -54.501
1333.2000, -54.555
1333.4000, -54.694
1333.6000, -54.612
1333.8000, -54.294
1334.0000, -54.054
1334.2000, -54.161
1334.4000, -54.258
1334.6000, -54.164
1334.8000, -54.086
1335.0000, -54.011
1335.2000, -54.262
1335.4000, -54.591
1335.6000, -54.797
1335.8000, -54.778
1336.0000, -54.828
1336.2000, -55.148
1336.4000, -55.443
1336.6000, -55.603
1336.8000, -55.596
1337.0000, -55.583
1337.2000, -55.740
1337.4000, -56.101
1337.6000, -56.258
1337.8000, -56.069
1338.0000, -55.974
1338.2000, -55.930
1338.4000, -55.873
1338.6000, -55.909
1338.8000, -55.616
1339.0000, -55.122
1339.2000, -55.106
1339.4000, -55.083
1339.6000, -55.082
1339.8000, -54.986
1340.0000, -54.850
1340.2000, -55.228
1340.4000, -55.382
1340.6000, -55.756
1340.8000, -55.654
1341.0000, -55.912
1341.2000, -56.159
1341.4000, -56.350
1341.6000, -56.519
1341.8000, -56.383
1342.0000, -56.342
1342.2000, -56.403
1342.4000, -56.580
1342.6000, -56.556
1342.8000, -56.380
1343.0000, -56.137
1343.2000, -56.043
1343.4000, -56.147
1343.6000, -55.939
1343.8000, -55.723
1344.0000, -55.520
1344.2000, -55.313
1344.4000, -55.495
1344.6000, -55.531
1344.8000, -55.416
1345.0000, -55.191
1345.2000, -55.346
1345.4000, -55.474
1345.6000, -55.612
1345.8000, -55.620
1346.0000, -55.663
1346.2000, -55.643
1346.4000, -56.013
1346.6000, -56.235
1346.8000, -56.138
1347.0000, -56.035
1347.2000, -56.278
1347.4000, -56.396
1347.6000, -56.370
1347.8000, -56.118
1348.0000, -55.749
1348.2000, -55.651
1348.4000, -55.598
1348.6000, -55.460
1348.8000, -55.260
1349.0000, -54.864
1349.2000, -54.796
1349.4000, -54.770
1349.6000, -54.791
1349.8000, -54.753
1350.0000, -54.789
1350.2000, -54.911
1350.4000, -55.241
1350.6000, -55.562
1350.8000, -55.675
1351.0000, -55.600
1351.2000, -55.642
1351.4000, -55.675
1351.6000, -55.430
1351.8000, -55.045
1352.0000, -54.671
1352.2000, -54.378
1352.4000, -54.063
1352.6000, -54.001
1352.8000, -53.861
1353.0000, -53.680
1353.2000, -53.672
1353.4000, -53.984
1353.6000, -54.302
1353.8000, -54.310
1354.0000, -54.495
1354.2000, -54.870
1354.4000, -55.388
1354.6000, -55.810
1354.8000, -56.033
1355.0000, -56.057
1355.2000, -56.204
1355.4000, -56.370
1355.6000, -56.093
1355.8000, -55.620
1356.0000, -55.091
1356.2000, -54.644
1356.4000, -54.232
1356.6000, -54.030
1356.8000, -53.888
1357.0000, -53.786
1357.2000, -54.059
1357.4000, -54.499
1357.6000, -54.872
1357.8000, -54.892
1358.0000, -55.328
1358.2000, -55.829
1358.4000, -56.348
1358.6000, -56.461
1358.8000, -56.453
1359.0000, -56.364
1359.2000, -56.276
1359.4000, -55.824
1359.6000, -55.318
1359.8000, -54.646
1360.0000, -54.079
1360.2000, -53.547
1360.4000, -53.531
1360.6000, -53.534
1360.8000, -53.406
1361.0000, -53.526
1361.2000, -54.102
1361.4000, -54.547
1361.6000, -54.869
1361.8000, -55.393
1362.0000, -56.265
1362.2000, -56.660
1362.4000, -56.816
1362.6000, -56.567
1362.8000, -56.174
1363.0000, -55.326
1363.2000, -54.871
1363.4000, -54.525
1363.6000, -54.167
1363.8000, -53.907
1364.0000, -53.729
1364.2000, -54.136
1364.4000, -54.312
1364.6000, -54.405
1364.8000, -54.385
1365.0000, -54.940
1365.2000, -55.108
1365.4000, -55.186
1365.6000, -55.325
1365.8000, -55.354
1366.0000, -55.069
1366.2000, -54.683
1366.4000, -54.539
1366.6000, -54.125
1366.8000, -53.697
1367.0000, -53.471
1367.2000, -53.427
1367.4000, -53.495
1367.6000, -53.503
1367.8000, -53.600
1368.0000, -53.944
1368.2000, -54.427
1368.4000, -54.671
1368.6000, -54.884
1368.8000, -55.179
1369.0000, -55.295
1369.2000, -55.048
1369.4000, -54.842
1369.6000, -54.602
1369.8000, -54.172
1370.0000, -53.772
1370.2000, -53.509
1370.4000, -53.414
1370.6000, -53.292
1370.8000, -53.290
1371.0000, -53.449
1371.2000, -53.836
1371.4000, -54.136
1371.6000, -54.302
1371.8000, -54.695
1372.0000, -55.153
1372.2000, -55.581
1372.4000, -55.681
1372.6000, -55.416
1372.8000, -54.950
1373.0000, -54.743
1373.2000, -54.506
1373.4000, -54.202
1373.6000, -53.912
1373.8000, -53.709
1374.0000, -53.615
1374.2000, -53.808
1374.4000, -54.028
1374.6000, -54.324
1374.8000, -54.689
1375.0000, -54.802
1375.2000, -54.930
1375.4000, -54.997
1375.6000, -54.846
1375.8000, -54.547
1376.0000, -54.354
1376.2000, -54.306
1376.4000, -54.184
1376.6000, -54.161
1376.8000, -54.191
1377.0000, -54.245
1377.2000, -54.410
1377.4000, -54.616
1377.6000, -54.683
1377.8000, -54.790
1378.0000, -55.105
1378.2000, -55.354
1378.4000, -55.740
1378.6000, -55.680
1378.8000, -55.450
1379.0000, -55.300
1379.2000, -54.936
1379.4000, -54.596
1379.6000, -54.407
1379.8000, -54.394
1380.0000, -54.365
1380.2000, -54.902
1380.4000, -55.305
1380.6000, -55.480
1380.8000, -55.662
1381.0000, -55.818
1381.2000, -55.530
1381.4000, -55.212
1381.6000, -55.210
1381.8000, -55.088
1382.0000, -55.213
1382.2000, -55.599
1382.4000, -55.916
1382.6000, -56.083
1382.8000, -56.214
1383.0000, -56.109
1383.2000, -55.940
1383.4000, -55.872
1383.6000, -55.721
1383.8000, -55.810
1384.0000, -55.814
1384.2000, -55.633
1384.4000, -55.508
1384.6000, -55.515
1384.8000, -55.706
1385.0000, -55.783
1385.2000, -55.758
1385.4000, -55.877
1385.6000, -56.004
1385.8000, -56.197
1386.0000, -56.344
1386.2000, -56.637
1386.4000, -56.861
1386.6000, -56.797
1386.8000, -56.998
1387.0000, -56.803
1387.2000, -56.760
1387.4000, -56.944
1387.6000, -56.962
1387.8000, -57.172
1388.0000, -57.160
1388.2000, -57.154
1388.4000, -56.864
1388.6000, -56.752
1388.8000, -56.499
1389.0000, -56.337
1389.2000, -56.179
1389.4000, -56.124
1389.6000, -56.126
1389.8000, -56.118
1390.0000, -55.977
1390.2000, -55.755
1390.4000, -55.759
1390.6000, -55.609
1390.8000, -55.530
1391.0000, -55.667
1391.2000, -55.799
1391.4000, -55.894
1391.6000, -56.128
1391.8000, -56.385
1392.0000, -56.760
1392.2000, -57.246
1392.4000, -57.202
1392.6000, -57.311
1392.8000, -56.919
1393.0000, -56.549
1393.2000, -56.201
1393.4000, -56.055
1393.6000, -55.884
1393.8000, -55.669
1394.0000, -55.665
1394.2000, -55.555
1394.4000, -55.797
1394.6000, -56.106
1394.8000, -56.116
1395.0000, -56.233
1395.2000, -56.130
1395.4000, -55.892
1395.6000, -55.331
1395.8000, -55.237
1396.0000, -55.297
1396.2000, -55.319
1396.4000, -55.393
1396.6000, -55.579
1396.8000, -55.581
1397.0000, -55.331
1397.2000, -55.171
1397.4000, -55.102
1397.6000, -54.997
1397.8000, -54.812
1398.0000, -54.698
1398.2000, -54.645
1398.4000, -54.688
1398.6000, -54.779
1398.8000, -54.785
1399.0000, -55.005
1399.2000, -55.324
1399.4000, -55.437
1399.6000, -55.487
1399.8000, -55.350
1400.0000, -55.243
1400.2000, -55.155
1400.4000, -55.180
1400.6000, -54.904
1400.8000, -54.903
1401.0000, -55.113
1401.2000, -55.121
1401.4000, -55.168
1401.6000, -55.197
1401.8000, -55.172
1402.0000, -55.046
1402.2000, -54.905
1402.4000, -54.803
1402.6000, -54.577
1402.8000, -54.450
1403.0000, -54.352
1403.2000, -54.414
1403.4000, -54.503
1403.6000, -54.508
1403.8000, -54.660
1404.0000, -54.733
1404.2000, -54.886
1404.4000, -54.844
1404.6000, -55.088
1404.8000, -55.025
1405.0000, -54.985
1405.2000, -54.929
1405.4000, -54.934
1405.6000, -54.686
1405.8000, -54.741
1406.0000, -54.676
1406.2000, -54.575
1406.4000, -54.456
1406.6000, -54.312
1406.8000, -54.323
1407.0000, -54.342
1407.2000, -54.433
1407.4000, -54.571
1407.6000, -54.581
1407.8000, -54.716
1408.0000, -54.646
1408.2000, -54.661
1408.4000, -54.593
1408.6000, -54.655
1408.8000, -54.634
1409.0000, -54.695
1409.2000, -54.905
1409.4000, -55.039
1409.6000, -55.181
1409.8000, -55.248
1410.0000, -55.122
1410.2000, -54.837
1410.4000, -54.512
1410.6000, -54.316
1410.8000, -54.219
1411.0000, -54.205
1411.2000, -54.161
1411.4000, -54.317
1411.6000, -54.504
1411.8000, -54.572
1412.0000, -54.477
1412.2000, -54.333
1412.4000, -54.165
1412.6000, -54.027
1412.8000, -53.856
1413.0000, -53.862
1413.2000, -53.921
1413.4000, -53.987
1413.6000, -54.191
1413.8000, -54.272
1414.0000, -54.220
1414.2000, -54.135
1414.4000, -54.194
1414.6000, -54.204
1414.8000, -54.113
1415.0000, -54.287
1415.2000, -54.394
1415.4000, -54.372
1415.6000, -54.216
1415.8000, -54.001
1416.0000, -53.710
1416.2000, -53.648
1416.4000, -53.557
1416.6000, -53.555
1416.8000, -53.707
1417.0000, -53.768
1417.2000, -53.884
1417.4000, -53.836
1417.6000, -53.668
1417.8000, -53.514
1418.0000, -53.546
1418.2000, -53.654
1418.4000, -53.865
1418.6000, -54.078
1418.8000, -54.228
1419.0000, -54.195
1419.2000, -54.133
1419.4000, -53.965
1419.6000, -53.915
1419.8000, -53.906
1420.0000, -53.928
1420.2000, -54.028
1420.4000, -54.284
1420.6000, -54.258
1420.8000, -54.218
1421.0000, -54.008
1421.2000, -53.843
1421.4000, -53.821
1421.6000, -53.950
1421.8000, -54.099
1422.0000, -54.080
1422.2000, -54.313
1422.4000, -54.223
1422.6000, -54.198
1422.8000, -54.174
1423.0000, -54.015
1423.2000, -53.831
1423.4000, -53.847
1423.6000, -54.043
1423.8000, -54.029
1424.0000, -54.034
1424.2000, -53.882
1424.4000, -53.966
1424.6000, -53.943
1424.8000, -53.879
1425.0000, -53.991
1425.2000, -54.007
1425.4000, -53.965
1425.6000, -53.917
1425.8000, -53.800
1426.0000, -53.589
1426.2000, -53.575
1426.4000, -53.470
1426.6000, -53.433
1426.8000, -53.446
1427.0000, -53.600
1427.2000, -53.463
1427.4000, -53.437
1427.6000, -53.424
1427.8000, -53.362
1428.0000, -53.382
1428.2000, -53.386
1428.4000, -53.369
1428.6000, -53.326
1428.8000, -53.287
1429.0000, -53.259
1429.2000, -53.295
1429.4000, -53.210
1429.6000, -53.143
1429.8000, -53.058
1430.0000, -53.033
1430.2000, -53.023
1430.4000, -52.932
1430.6000, -52.759
1430.8000, -52.814
1431.0000, -52.841
1431.2000, -52.935
1431.4000, -53.026
1431.6000, -52.990
1431.8000, -52.950
1432.0000, -53.137
1432.2000, -53.178
1432.4000, -53.226
1432.6000, -53.167
1432.8000, -53.133
1433.0000, -53.022
1433.2000, -53.027
1433.4000, -53.087
1433.6000, -53.107
1433.8000, -53.076
1434.0000, -53.097
1434.2000, -53.146
1434.4000, -53.274
1434.6000, -53.216
1434.8000, -53.061
1435.0000, -53.051
1435.2000, -53.125
1435.4000, -53.217
1435.6000, -53.224
1435.8000, -53.253
1436.0000, -53.204
1436.2000, -53.371
1436.4000, -53.489
1436.6000, -53.439
1436.8000, -53.500
1437.0000, -53.586
1437.2000, -53.697
1437.4000, -53.884
1437.6000, -53.817
1437.8000, -53.757
1438.0000, -53.844
1438.2000, -53.878
1438.4000, -53.793
1438.6000, -53.844
1438.8000, -53.848
1439.0000, -53.911
1439.2000, -53.908
1439.4000, -54.039
1439.6000, -54.088
1439.8000, -54.110
1440.0000, -54.114
1440.2000, -54.084
1440.4000, -54.186
1440.6000, -54.247
1440.8000, -54.510
1441.0000, -54.645
1441.2000, -54.691
1441.4000, -54.714
1441.6000, -54.963
1441.8000, -55.150
1442.0000, -55.011
1442.2000, -54.935
1442.4000, -55.077
1442.6000, -55.247
1442.8000, -55.272
1443.0000, -55.243
1443.2000, -55.115
1443.4000, -54.985
1443.6000, -54.996
1443.8000, -54.959
1444.0000, -54.616
1444.2000, -54.389
1444.4000, -54.228
1444.6000, -54.335
1444.8000, -54.405
1445.0000, -54.270
1445.2000, -54.112
1445.4000, -54.275
1445.6000, -54.494
1445.8000, -54.577
1446.0000, -54.441
1446.2000, -54.193
1446.4000, -54.301
1446.6000, -54.617
1446.8000, -54.701
1447.0000, -54.482
1447.2000, -54.409
1447.4000, -54.591
1447.6000, -54.695
1447.8000, -54.606
1448.0000, -54.272
1448.2000, -54.333
1448.4000, -54.536
1448.6000, -54.570
1448.8000, -54.522
1449.0000, -54.324
1449.2000, -54.423
1449.4000, -54.663
1449.6000, -54.633
1449.8000, -54.358
1450.0000, -54.481
1450.2000, -54.779
1450.4000, -54.885
1450.6000, -54.809
1450.8000, -54.729
1451.0000, -54.887
1451.2000, -55.092
1451.4000, -55.035
1451.6000, -54.769
1451.8000, -54.603
1452.0000, -54.687
1452.2000, -54.798
1452.4000, -54.653
1452.6000, -54.521
1452.8000, -54.530
1453.0000, -54.743
1453.2000, -54.787
1453.4000, -54.538
1453.6000, -54.487
1453.8000, -54.549
1454.0000, -54.625
1454.2000, -54.616
1454.4000, -54.446
1454.6000, -54.563
1454.8000, -54.770
1455.0000, -54.895
1455.2000, -54.772
1455.4000, -54.784
1455.6000, -54.989
1455.8000, -55.116
1456.0000, -55.071
1456.2000, -55.043
1456.4000, -55.060
1456.6000, -55.260
1456.8000, -55.205
1457.0000, -55.193
1457.2000, -55.123
1457.4000, -55.243
1457.6000, -55.288
1457.8000, -55.077
1458.0000, -55.027
1458.2000, -55.040
1458.4000, -55.130
1458.6000, -54.963
1458.8000, -54.918
1459.0000, -55.042
1459.2000, -55.176
1459.4000, -55.150
1459.6000, -55.088
1459.8000, -55.110
1460.0000, -55.324
1460.2000, -55.475
1460.4000, -55.441
1460.6000, -55.405
1460.8000, -55.330
1461.0000, -55.518
1461.2000, -55.536
1461.4000, -55.357
1461.6000, -55.332
1461.8000, -55.512
1462.0000, -55.567
1462.2000, -55.596
1462.4000, -55.464
1462.6000, -55.814
1462.8000, -55.971
1463.0000, -56.020
1463.2000, -55.850
1463.4000, -55.733
1463.6000, -55.904
1463.8000, -55.824
1464.0000, -55.723
1464.2000, -55.727
1464.4000, -55.957
1464.6000, -56.234
1464.8000, -56.184
1465.0000, -56.211
1465.2000, -56.304
1465.4000, -56.450
1465.6000, -56.489
1465.8000, -56.288
1466.0000, -56.217
1466.2000, -56.181
1466.4000, -56.504
1466.6000, -56.561
1466.8000, -56.403
1467.0000, -56.377
1467.2000, -56.466
1467.4000, -56.581
1467.6000, -56.476
1467.8000, -56.349
1468.0000, -56.540
1468.2000, -56.621
1468.4000, -56.569
1468.6000, -56.426
1468.8000, -56.357
1469.0000, -56.371
1469.2000, -56.397
1469.4000, -56.585
1469.6000, -56.640
1469.8000, -56.789
1470.0000, -56.919
1470.2000, -57.046
1470.4000, -56.828
1470.6000, -56.960
1470.8000, -56.826
1471.0000, -56.977
1471.2000, -56.693
1471.4000, -56.737
1471.6000, -56.876
1471.8000, -57.127
1472.0000, -57.098
1472.2000, -57.135
1472.4000, -56.933
1472.6000, -56.945
1472.8000, -56.713
1473.0000, -56.426
1473.2000, -56.256
1473.4000, -56.280
1473.6000, -56.357
1473.8000, -56.348
1474.0000, -56.547
1474.2000, -56.519
1474.4000, -56.676
1474.6000, -56.642
1474.8000, -56.538
1475.0000, -56.513
1475.2000, -56.345
1475.4000, -56.226
1475.6000, -56.214
1475.8000, -56.228
1476.0000, -56.279
1476.2000, -56.371
1476.4000, -56.463
1476.6000, -56.317
1476.8000, -56.375
1477.0000, -56.180
1477.2000, -56.212
1477.4000, -56.070
1477.6000, -55.983
1477.8000, -55.871
1478.0000, -55.975
1478.2000, -56.107
1478.4000, -56.248
1478.6000, -56.340
1478.8000, -56.268
1479.0000, -56.231
1479.2000, -56.197
1479.4000, -56.133
1479.6000, -56.026
1479.8000, -55.958
1480.0000, -56.133
1480.2000, -56.180
1480.4000, -56.268
1480.6000, -56.387
1480.8000, -56.441
1481.0000, -56.316
1481.2000, -56.002
1481.4000, -55.877
1481.6000, -55.618
1481.8000, -55.566
1482.0000, -55.388
1482.2000, -55.261
1482.4000, -55.198
1482.6000, -55.117
1482.8000, -55.166
1483.0000, -55.182
1483.2000, -55.237
1483.4000, -55.047
1483.6000, -55.046
1483.8000, -54.970
1484.0000, -54.890
1484.2000, -54.805
1484.4000, -54.707
1484.6000, -54.690
1484.8000, -54.616
1485.0000, -54.653
1485.2000, -54.678
1485.4000, -54.702
1485.6000, -54.684
1485.8000, -54.827
1486.0000, -54.674
1486.2000, -54.555
1486.4000, -54.424
1486.6000, -54.377
1486.8000, -54.300
1487.0000, -54.083
1487.2000, -54.021
1487.4000, -54.019
1487.6000, -53.978
1487.8000, -53.901
1488.0000, -53.805
1488.2000, -53.795
1488.4000, -53.785
1488.6000, -53.755
1488.8000, -53.680
1489.0000, -53.743
1489.2000, -53.749
1489.4000, -53.811
1489.6000, -53.662
1489.8000, -53.571
1490.0000, -53.630
1490.2000, -53.663
1490.4000, -53.600
1490.6000, -53.588
1490.8000, -53.568
1491.0000, -53.567
1491.2000, -53.596
1491.4000, -53.495
1491.6000, -53.485
1491.8000, -53.513
1492.0000, -53.467
1492.2000, -53.511
1492.4000, -53.475
1492.6000, -53.438
1492.8000, -53.429
1493.0000, -53.437
1493.2000, -53.504
1493.4000, -53.589
1493.6000, -53.569
1493.8000, -53.691
1494.0000, -53.684
1494.2000, -53.878
1494.4000, -53.885
1494.6000, -53.883
1494.8000, -53.904
1495.0000, -53.889
1495.2000, -53.940
1495.4000, -53.889
1495.6000, -53.856
1495.8000, -53.958
1496.0000, -53.855
1496.2000, -53.803
1496.4000, -53.758
1496.6000, -53.893
1496.8000, -53.922
1497.0000, -53.763
1497.2000, -53.709
1497.4000, -53.763
1497.6000, -53.712
1497.8000, -53.552
1498.0000, -53.368
1498.2000, -53.332
1498.4000, -53.339
1498.6000, -53.243
1498.8000, -53.245
1499.0000, -53.290
1499.2000, -53.393
1499.4000, -53.387
1499.6000, -53.282
1499.8000, -53.307
1500.0000, -53.404
1500.2000, -53.377
1500.4000, -53.294
1500.6000, -53.328
1500.8000, -53.422
1501.0000, -53.323
1501.2000, -53.212
1501.4000, -53.084
1501.6000, -53.055
1501.8000, -53.019
1502.0000, -52.917
1502.2000, -52.764
1502.4000, -52.819
1502.6000, -52.866
1502.8000, -52.831
1503.0000, -52.785
1503.2000, -52.825
1503.4000, -52.850
1503.6000, -52.804
1503.8000, -52.798
1504.0000, -52.800
1504.2000, -52.816
1504.4000, -52.873
1504.6000, -52.782
1504.8000, -52.754
1505.0000, -52.820
1505.2000, -52.781
1505.4000, -52.621
1505.6000, -52.603
1505.8000, -52.629
1506.0000, -52.609
1506.2000, -52.578
1506.4000, -52.620
1506.6000, -52.750
1506.8000, -52.858
1507.0000, -52.889
1507.2000, -52.918
1507.4000, -52.950
1507.6000, -52.986
1507.8000, -52.963
1508.0000, -52.895
1508.2000, -52.920
1508.4000, -52.938
1508.6000, -52.994
1508.8000, -53.051
1509.0000, -53.178
1509.2000, -53.281
1509.4000, -53.336
1509.6000, -53.400
1509.8000, -53.504
1510.0000, -53.581
1510.2000, -53.614
1510.4000, -53.479
1510.6000, -53.465
1510.8000, -53.392
1511.0000, -53.410
1511.2000, -53.387
1511.4000, -53.304
1511.6000, -53.422
1511.8000, -53.379
1512.0000, -53.285
1512.2000, -53.296
1512.4000, -53.392
1512.6000, -53.319
1512.8000, -53.295
1513.0000, -53.328
1513.2000, -53.502
1513.4000, -53.653
1513.6000, -53.577
1513.8000, -53.600
1514.0000, -53.697
1514.2000, -53.622
1514.4000, -53.498
1514.6000, -53.377
1514.8000, -53.492
1515.0000, -53.586
1515.2000, -53.608
1515.4000, -53.482
1515.6000, -53.575
1515.8000, -53.533
1516.0000, -53.546
1516.2000, -53.413
1516.4000, -53.452
1516.6000, -53.545
1516.8000, -53.612
1517.0000, -53.623
1517.2000, -53.661
1517.4000, -53.764
1517.6000, -53.832
1517.8000, -53.757
1518.0000, -53.753
1518.2000, -53.731
1518.4000, -53.700
1518.6000, -53.568
1518.8000, -53.542
1519.0000, -53.533
1519.2000, -53.569
1519.4000, -53.573
1519.6000, -53.579
1519.8000, -53.681
1520.0000, -53.692
1520.2000, -53.732
1520.4000, -53.659
1520.6000, -53.675
1520.8000, -53.694
1521.0000, -53.661
1521.2000, -53.608
1521.4000, -53.642
1521.6000, -53.764
1521.8000, -53.715
1522.0000, -53.724
1522.2000, -53.740
1522.4000, -53.789
1522.6000, -53.782
1522.8000, -53.730
1523.0000, -53.830
1523.2000, -53.916
1523.4000, -53.950
1523.6000, -53.976
1523.8000, -54.039
1524.0000, -53.965
1524.2000, -53.836
1524.4000, -53.776
1524.6000, -53.677
1524.8000, -53.755
1525.0000, -53.787
1525.2000, -53.707
1525.4000, -53.842
1525.6000, -53.922
1525.8000, -53.965
1526.0000, -53.964
1526.2000, -54.038
1526.4000, -54.220
1526.6000, -54.197
1526.8000, -54.200
1527.0000, -54.250
1527.2000, -54.327
1527.4000, -54.392
1527.6000, -54.404
1527.8000, -54.410
1528.0000, -54.409
1528.2000, -54.459
1528.4000, -54.446
1528.6000, -54.326
1528.8000, -54.379
1529.0000, -54.306
1529.2000, -54.353
1529.4000, -54.364
1529.6000, -54.415
1529.8000, -54.550
1530.0000, -54.601
1530.2000, -54.607
1530.4000, -54.579
1530.6000, -54.469
1530.8000, -54.426
1531.0000, -54.362
1531.2000, -54.387
1531.4000, -54.471
1531.6000, -54.655
1531.8000, -54.668
1532.0000, -54.733
1532.2000, -54.837
1532.4000, -54.756
1532.6000, -54.678
1532.8000, -54.577
1533.0000, -54.578
1533.2000, -54.651
1533.4000, -54.633
1533.6000, -54.770
1533.8000, -54.912
1534.0000, -54.906
1534.2000, -54.843
1534.4000, -54.740
1534.6000, -54.622
1534.8000, -54.494
1535.0000, -54.507
1535.2000, -54.450
1535.4000, -54.588
1535.6000, -54.615
1535.8000, -54.772
1536.0000, -54.854
1536.2000, -54.895
1536.4000, -54.858
1536.6000, -54.717
1536.8000, -54.612
1537.0000, -54.556
1537.2000, -54.650
1537.4000, -54.672
1537.6000, -54.747
1537.8000, -54.886
1538.0000, -54.958
1538.2000, -54.919
1538.4000, -54.849
1538.6000, -54.805
1538.8000, -54.681
1539.0000, -54.566
1539.2000, -54.517
1539.4000, -54.482
1539.6000, -54.540
1539.8000, -54.735
1540.0000, -54.966
1540.2000, -55.152
1540.4000, -55.142
1540.6000, -55.057
1540.8000, -54.995
1541.0000, -54.723
1541.2000, -54.552
1541.4000, -54.463
1541.6000, -54.664
1541.8000, -54.833
1542.0000, -55.107
1542.2000, -55.261
1542.4000, -55.433
1542.6000, -55.411
1542.8000, -55.030
1543.0000, -54.748
1543.2000, -54.578
1543.4000, -54.482
1543.6000, -54.516
1543.8000, -54.709
1544.0000, -54.928
1544.2000, -55.192
1544.4000, -55.064
1544.6000, -54.844
1544.8000, -54.728
1545.0000, -54.583
1545.2000, -54.435
1545.4000, -54.437
1545.6000, -54.531
1545.8000, -54.650
1546.0000, -54.770
1546.2000, -54.907
1546.4000, -54.887
1546.6000, -54.795
1546.8000, -54.666
1547.0000, -54.705
1547.2000, -54.575
1547.4000, -54.493
1547.6000, -54.470
1547.8000, -54.487
1548.0000, -54.466
1548.2000, -54.509
1548.4000, -54.573
1548.6000, -54.491
1548.8000, -54.539
1549.0000, -54.418
1549.2000, -54.319
1549.4000, -54.145
1549.6000, -54.143
1549.8000, -54.141
1550.0000, -54.408
1550.2000, -54.654
1550.4000, -54.895
1550.6000, -54.999
1550.8000, -54.998
1551.0000, -54.846
1551.2000, -54.757
1551.4000, -54.565
1551.6000, -54.599
1551.8000, -54.626
1552.0000, -54.743
1552.2000, -54.824
1552.4000, -54.808
1552.6000, -54.825
1552.8000, -54.685
1553.0000, -54.691
1553.2000, -54.607
1553.4000, -54.648
1553.6000, -54.689
1553.8000, -54.774
1554.0000, -54.804
1554.2000, -54.868
1554.4000, -54.804
1554.6000, -54.752
1554.8000, -54.608
1555.0000, -54.703
1555.2000, -54.674
1555.4000, -54.747
1555.6000, -55.018
1555.8000, -55.283
1556.0000, -55.384
1556.2000, -55.402
1556.4000, -55.448
1556.6000, -55.323
1556.8000, -55.152
1557.0000, -55.169
1557.2000, -55.077
1557.4000, -55.043
1557.6000, -55.030
1557.8000, -54.983
1558.0000, -55.162
1558.2000, -55.146
1558.4000, -55.087
1558.6000, -54.982
1558.8000, -55.135
1559.0000, -55.167
1559.2000, -55.154
1559.4000, -55.231
1559.6000, -55.248
1559.8000, -55.187
1560.0000, -55.109
1560.2000, -55.058
1560.4000, -55.034
1560.6000, -54.930
1560.8000, -54.915
1561.0000, -55.068
1561.2000, -55.229
1561.4000, -55.088
1561.6000, -55.082
1561.8000, -55.004
1562.0000, -55.041
1562.2000, -54.989
1562.4000, -54.857
1562.6000, -54.734
1562.8000, -54.501
1563.0000, -54.476
1563.2000, -54.321
1563.4000, -54.419
1563.6000, -54.440
1563.8000, -54.459
1564.0000, -54.626
1564.2000, -54.717
1564.4000, -54.865
1564.6000, -54.888
1564.8000, -54.746
1565.0000, -54.790
1565.2000, -54.810
1565.4000, -54.712
1565.6000, -54.618
1565.8000, -54.584
1566.0000, -54.611
1566.2000, -54.580
1566.4000, -54.533
1566.6000, -54.591
1566.8000, -54.467
1567.0000, -54.460
1567.2000, -54.386
1567.4000, -54.503
1567.6000, -54.450
1567.8000, -54.293
1568.0000, -54.221
1568.2000, -54.232
1568.4000, -54.153
1568.6000, -54.174
1568.8000, -54.230
1569.0000, -54.268
1569.2000, -54.358
1569.4000, -54.412
1569.6000, -54.468
1569.8000, -54.537
1570.0000, -54.610
1570.2000, -54.595
1570.4000, -54.642
1570.6000, -54.664
1570.8000, -54.704
1571.0000, -54.655
1571.2000, -54.633
1571.4000, -54.623
1571.6000, -54.761
1571.8000, -54.871
1572.0000, -54.817
1572.2000, -54.821
1572.4000, -54.954
1572.6000, -54.987
1572.8000, -55.076
1573.0000, -55.123
1573.2000, -55.251
1573.4000, -55.432
1573.6000, -55.477
1573.8000, -55.629
1574.0000, -55.654
1574.2000, -55.714
1574.4000, -55.804
1574.6000, -55.941
1574.8000, -56.130
1575.0000, -56.321
1575.2000, -56.404
1575.4000, -56.549
1575.6000, -56.718
1575.8000, -56.910
1576.0000, -56.778
1576.2000, -56.793
1576.4000, -56.739
1576.6000, -56.651
1576.8000, -56.658
1577.0000, -56.873
1577.2000, -56.743
1577.4000, -56.851
1577.6000, -56.881
1577.8000, -57.027
1578.0000, -56.980
1578.2000, -56.981
1578.4000, -56.990
1578.6000, -57.270
1578.8000, -57.291
1579.0000, -57.527
1579.2000, -57.563
1579.4000, -57.743
1579.6000, -57.838
1579.8000, -57.802
1580.0000, -58.034
1580.2000, -57.959
1580.4000, -57.943
1580.6000, -57.955
1580.8000, -58.138
1581.0000, -58.417
1581.2000, -58.554
1581.4000, -58.428
1581.6000, -58.703
1581.8000, -58.465
1582.0000, -58.470
1582.2000, -58.464
1582.4000, -58.306
1582.6000, -58.267
1582.8000, -58.413
1583.0000, -58.726
1583.2000, -58.921
1583.4000, -59.103
1583.6000, -59.045
1583.8000, -58.901
1584.0000, -58.834
1584.2000, -58.770
1584.4000, -58.873
1584.6000, -59.177
1584.8000, -59.450
1585.0000, -59.637
1585.2000, -59.785
1585.4000, -59.500
1585.6000, -59.605
1585.8000, -59.304
1586.0000, -59.256
1586.2000, -59.208
1586.4000, -59.340
1586.6000, -59.343
1586.8000, -59.747
1587.0000, -60.058
1587.2000, -59.913
1587.4000, -59.823
1587.6000, -59.659
1587.8000, -59.393
1588.0000, -59.381
1588.2000, -59.413
1588.4000, -59.548
1588.6000, -59.799
1588.8000, -60.172
1589.0000, -60.303
1589.2000, -60.247
1589.4000, -60.251
1589.6000, -59.875
1589.8000, -59.836
1590.0000, -59.986
1590.2000, -59.944
1590.4000, -60.254
1590.6000, -60.439
1590.8000, -60.325
1591.0000, -60.086
1591.2000, -59.996
1591.4000, -59.649
1591.6000, -59.202
1591.8000, -59.241
1592.0000, -59.408
1592.2000, -59.557
1592.4000, -60.001
1592.6000, -59.972
1592.8000, -60.200
1593.0000, -60.100
1593.2000, -59.703
1593.4000, -59.391
1593.6000, -59.426
1593.8000, -59.842
1594.0000, -59.749
1594.2000, -60.060
1594.4000, -60.163
1594.6000, -60.247
1594.8000, -60.025
1595.0000, -59.800
1595.2000, -59.657
1595.4000, -59.254
1595.6000, -59.096
1595.8000, -59.355
1596.0000, -59.545
1596.2000, -59.910
1596.4000, -59.543
1596.6000, -59.516
1596.8000, -59.595
1597.0000, -59.114
1597.2000, -58.813
1597.4000, -58.686
1597.6000, -58.718
1597.8000, -58.913
1598.0000, -59.083
1598.2000, -59.027
1598.4000, -58.885
1598.6000, -58.923
1598.8000, -58.688
1599.0000, -58.560
1599.2000, -58.421
1599.4000, -58.697
1599.6000, -58.846
1599.8000, -58.663
1600.0000, -58.887
1600.2000, -58.592
1600.4000, -58.565
1600.6000, -58.357
1600.8000, -58.287
1601.0000, -58.069
1601.2000, -58.041
1601.4000, -58.206
1601.6000, -58.160
1601.8000, -58.176
1602.0000, -58.342
1602.2000, -58.242
1602.4000, -58.164
1602.6000, -58.253
1602.8000, -58.250
1603.0000, -57.995
1603.2000, -58.006
1603.4000, -57.809
1603.6000, -57.649
1603.8000, -57.679
1604.0000, -57.313
1604.2000, -57.322
1604.4000, -57.205
1604.6000, -57.266
1604.8000, -57.087
1605.0000, -57.140
1605.2000, -57.067
1605.4000, -57.016
1605.6000, -57.077
1605.8000, -56.861
1606.0000, -56.818
1606.2000, -56.780
1606.4000, -56.554
1606.6000, -56.553
1606.8000, -56.611
1607.0000, -56.500
1607.2000, -56.478
1607.4000, -56.559
1607.6000, -56.719
1607.8000, -56.433
1608.0000, -56.431
1608.2000, -56.181
1608.4000, -56.018
1608.6000, -56.008
1608.8000, -55.999
1609.0000, -56.056
1609.2000, -56.152
1609.4000, -56.201
1609.6000, -56.046
1609.8000, -56.126
1610.0000, -56.059
1610.2000, -56.020
1610.4000, -55.874
1610.6000, -55.836
1610.8000, -55.651
1611.0000, -55.683
1611.2000, -55.620
1611.4000, -55.572
1611.6000, -55.541
1611.8000, -55.408
1612.0000, -55.528
1612.2000, -55.588
1612.4000, -55.598
1612.6000, -55.574
1612.8000, -55.510
1613.0000, -55.470
1613.2000, -55.416
1613.4000, -55.430
1613.6000, -55.389
1613.8000, -55.411
1614.0000, -55.329
1614.2000, -55.310
1614.4000, -55.278
1614.6000, -55.239
1614.8000, -55.272
1615.0000, -55.240
1615.2000, -55.268
1615.4000, -55.227
1615.6000, -55.105
1615.8000, -54.993
1616.0000, -55.131
1616.2000, -55.204
1616.4000, -55.164
1616.6000, -55.458
1616.8000, -55.499
1617.0000, -55.446
1617.2000, -55.408
1617.4000, -55.561
1617.6000, -55.345
1617.8000, -55.328
1618.0000, -55.298
1618.2000, -55.292
1618.4000, -55.299
1618.6000, -55.267
1618.8000, -55.351
1619.0000, -55.195
1619.2000, -55.138
1619.4000, -55.282
1619.6000, -55.433
1619.8000, -55.621
1620.0000, -55.563
1620.2000, -55.609
1620.4000, -55.421
1620.6000, -55.318
1620.8000, -55.221
1621.0000, -55.400
1621.2000, -55.401
1621.4000, -55.386
1621.6000, -55.375
1621.8000, -55.292
1622.0000, -55.147
1622.2000, -55.004
1622.4000, -54.893
1622.6000, -54.916
1622.8000, -54.939
1623.0000, -55.057
1623.2000, -54.841
1623.4000, -54.852
1623.6000, -54.845
1623.8000, -54.843
1624.0000, -54.662
1624.2000, -54.713
1624.4000, -54.750
1624.6000, -54.655
1624.8000, -54.592
1625.0000, -54.650
1625.2000, -54.549
1625.4000, -54.328
1625.6000, -54.378
1625.8000, -54.406
1626.0000, -54.294
1626.2000, -54.311
1626.4000, -54.316
1626.6000, -54.285
1626.8000, -54.345
1627.0000, -54.343
1627.2000, -54.316
1627.4000, -54.198
1627.6000, -54.041
1627.8000, -53.936
1628.0000, -53.846
1628.2000, -53.718
1628.4000, -53.671
1628.6000, -53.836
1628.8000, -53.861
1629.0000, -53.858
1629.2000, -53.873
1629.4000, -53.909
1629.6000, -54.020
1629.8000, -54.091
1630.0000, -54.083
1630.2000, -54.205
1630.4000, -54.123
1630.6000, -54.058
1630.8000, -53.962
1631.0000, -54.007
1631.2000, -53.972
1631.4000, -54.037
1631.6000, -54.074
1631.8000, -54.139
1632.0000, -54.186
1632.2000, -54.124
1632.4000, -54.120
1632.6000, -54.062
1632.8000, -54.002
1633.0000, -54.062
1633.2000, -54.067
1633.4000, -53.954
1633.6000, -54.014
1633.8000, -53.904
1634.0000, -53.988
1634.2000, -53.935
1634.4000, -54.090
1634.6000, -54.062
1634.8000, -54.069
1635.0000, -53.980
1635.2000, -53.859
1635.4000, -53.813
1635.6000, -53.726
1635.8000, -53.732
1636.0000, -53.740
1636.2000, -53.660
1636.4000, -53.817
1636.6000, -53.884
1636.8000, -53.961
1637.0000, -53.882
1637.2000, -53.942
1637.4000, -53.948
1637.6000, -53.837
1637.8000, -53.834
1638.0000, -53.729
1638.2000, -53.766
1638.4000, -53.675
1638.6000, -53.699
1638.8000, -53.876
1639.0000, -53.980
1639.2000, -53.958
1639.4000, -53.824
1639.6000, -53.916
1639.8000, -53.946
1640.0000, -53.792
1640.2000, -53.888
1640.4000, -54.008
1640.6000, -54.081
1640.8000, -53.951
1641.0000, -54.007
1641.2000, -54.048
1641.4000, -54.055
1641.6000, -54.035
1641.8000, -53.908
1642.0000, -54.111
1642.2000, -54.081
1642.4000, -53.894
1642.6000, -53.972
1642.8000, -54.016
1643.0000, -54.128
1643.2000, -54.239
1643.4000, -54.202
1643.6000, -54.207
1643.8000, -54.268
1644.0000, -54.269
1644.2000, -54.209
1644.4000, -54.347
1644.6000, -54.512
1644.8000, -54.353
1645.0000, -54.501
1645.2000, -54.603
1645.4000, -54.518
1645.6000, -54.409
1645.8000, -54.513
1646.0000, -54.470
1646.2000, -54.474
1646.4000, -54.512
1646.6000, -54.503
1646.8000, -54.455
1647.0000, -54.547
1647.2000, -54.692
1647.4000, -54.701
1647.6000, -54.889
1647.8000, -54.846
1648.0000, -54.713
1648.2000, -54.591
1648.4000, -54.638
1648.6000, -54.740
1648.8000, -54.682
1649.0000, -54.962
1649.2000, -55.122
1649.4000, -55.152
1649.6000, -55.136
1649.8000, -55.073
1650.0000, -54.896
1650.2000, -54.951
1650.4000, -55.100
1650.6000, -55.108
1650.8000, -55.252
1651.0000, -55.195
1651.2000, -55.367
1651.4000, -55.575
1651.6000, -55.450
1651.8000, -55.583
1652.0000, -55.531
1652.2000, -55.550
1652.4000, -55.400
1652.6000, -55.433
1652.8000, -55.375
1653.0000, -55.394
1653.2000, -55.341
1653.4000, -55.387
1653.6000, -55.413
1653.8000, -55.511
1654.0000, -55.488
1654.2000, -55.552
1654.4000, -55.749
1654.6000, -55.729
1654.8000, -55.873
1655.0000, -55.931
1655.2000, -56.065
1655.4000, -56.116
1655.6000, -56.574
1655.8000, -56.548
1656.0000, -56.496
1656.2000, -56.096
1656.4000, -56.587
1656.6000, -56.396
1656.8000, -56.859
1657.0000, -57.602
1657.2000, -57.336
1657.4000, -56.844
1657.6000, -57.001
1657.8000, -56.888
1658.0000, -56.829
1658.2000, -56.614
1658.4000, -56.870
1658.6000, -57.696
1658.8000, -57.984
1659.0000, -57.948
1659.2000, -57.883
1659.4000, -57.460
1659.6000, -57.469
1659.8000, -57.119
1660.0000, -57.611
1660.2000, -57.615
1660.4000, -57.924
1660.6000, -58.383
1660.8000, -58.210
1661.0000, -57.822
1661.2000, -58.110
1661.4000, -58.591
1661.6000, -58.585
1661.8000, -58.866
1662.0000, -60.138
1662.2000, -59.098
1662.4000, -58.735
1662.6000, -58.839
1662.8000, -57.639
1663.0000, -58.868
1663.2000, -58.930
1663.4000, -57.905
1663.6000, -58.484
1663.8000, -59.086
1664.0000, -58.667
1664.2000, -58.674
1664.4000, -57.969
1664.6000, -58.702
1664.8000, -58.255
1665.0000, -58.834
1665.2000, -59.459
1665.4000, -59.752
1665.6000, -59.853
1665.8000, -60.003
1666.0000, -58.748
1666.2000, -58.204
1666.4000, -58.179
1666.6000, -59.727
1666.8000, -58.661
1667.0000, -59.862
1667.2000, -59.050
1667.4000, -58.545
1667.6000, -58.567
1667.8000, -58.852
1668.0000, -58.522
1668.2000, -59.187
1668.4000, -58.450
1668.6000, -60.408
1668.8000, -59.439
1669.0000, -58.061
1669.2000, -58.105
1669.4000, -58.213
1669.6000, -60.046
1669.8000, -59.570
1670.0000, -59.260
1670.2000, -59.429
1670.4000, -59.535
1670.6000, -58.117
1670.8000, -58.270
1671.0000, -59.679
1671.2000, -59.110
1671.4000, -59.471
1671.6000, -59.827
1671.8000, -60.485
1672.0000, -58.479
1672.2000, -59.516
1672.4000, -59.847
1672.6000, -59.353
1672.8000, -60.452
1673.0000, -59.957
1673.2000, -59.436
1673.4000, -59.209
1673.6000, -58.702
1673.8000, -60.279
1674.0000, -61.274
1674.2000, -61.311
1674.4000, -59.651
1674.6000, -60.210
1674.8000, -60.083
1675.0000, -59.765
1675.2000, -61.563
1675.4000, -59.525
1675.6000, -60.064
1675.8000, -61.333
1676.0000, -60.976
1676.2000, -62.483
1676.4000, -60.598
1676.6000, -59.247
1676.8000, -61.728
1677.0000, -60.138
1677.2000, -59.322
1677.4000, -59.476
1677.6000, -60.311
1677.8000, -60.991
1678.0000, -60.670
1678.2000, -60.807
1678.4000, -58.819
1678.6000, -59.328
1678.8000, -59.747
1679.0000, -60.071
1679.2000, -59.387
1679.4000, -62.027
1679.6000, -58.939
1679.8000, -61.051
1680.0000, -62.350
1680.2000, -63.909
1680.4000, -60.714
1680.6000, -64.745
1680.8000, -74.111
1681.0000, -60.820
1681.2000, -60.604
1681.4000, -60.693
1681.6000, -59.720
1681.8000, -61.579
1682.0000, -59.508
1682.2000, -57.881
1682.4000, -66.374
1682.6000, -60.950
1682.8000, -60.015
1683.0000, -60.860
1683.2000, -62.738
1683.4000, -59.399
1683.6000, -69.620
1683.8000, -59.164
1684.0000, -61.252
1684.2000, -63.201
1684.4000, -58.342
1684.6000, -58.456
1684.8000, -58.167
1685.0000, -59.308
1685.2000, -66.714
1685.4000, -61.502
1685.6000,-210.000
1685.8000, -62.967
1686.0000, -63.571
1686.2000, -61.976
1686.4000, -69.333
1686.6000, -60.579
1686.8000, -57.843
1687.0000, -59.977
1687.2000, -61.748
1687.4000, -57.795
1687.6000, -65.215
1687.8000, -62.821
1688.0000,-210.000
1688.2000,-210.000
1688.4000, -59.197
1688.6000, -57.808
1688.8000,-210.000
1689.0000, -62.613
1689.2000,-210.000
1689.4000, -56.239
1689.6000, -61.487
1689.8000, -60.589
1690.0000, -68.710
1690.2000, -67.061
1690.4000, -60.173
1690.6000,-210.000
1690.8000,-210.000
1691.0000, -65.869
1691.2000,-210.000
1691.4000, -60.466
1691.6000,-210.000
1691.8000, -60.265
1692.0000, -58.634
1692.2000, -62.929
1692.4000, -62.565
1692.6000,-210.000
1692.8000, -67.916
1693.0000, -68.979
1693.2000, -57.110
1693.4000, -56.603
1693.6000, -56.847
1693.8000, -58.656
1694.0000, -75.220
1694.2000, -59.361
1694.4000,-210.000
1694.6000, -57.422
1694.8000, -56.865
1695.0000, -75.533
1695.2000, -66.339
1695.4000,-210.000
1695.6000, -56.374
1695.8000, -60.232
1696.0000,-210.000
1696.2000,-210.000
1696.4000, -58.684
1696.6000, -57.662
1696.8000, -62.185
1697.0000, -59.911
1697.2000, -61.678
1697.4000, -57.322
1697.6000, -60.790
1697.8000, -60.680
1698.0000, -64.524
1698.2000, -64.531
1698.4000,-210.000
1698.6000,-210.000
1698.8000, -63.874
1699.0000,-210.000
1699.2000, -57.214
1699.4000, -57.436
1699.6000,-210.000
1699.8000, -62.161
1700.0000,-210.000
